# The transport data in this file was generated using BOLSIG+ with the Phelps data base for air at 300K
# using a 20/80 O2/N2 mixture

# Electron mean energy (E/N, eV)
0.5000	0.1768
10.55	0.9506
20.60	1.045
30.64	1.090
40.69	1.145
50.74	1.247
60.79	1.421
70.83	1.675
80.88	1.981
90.93	2.318
101.0	2.662
111.0	2.992
121.1	3.313
131.1	3.616
141.2	3.898
151.2	4.161
161.3	4.402
171.3	4.635
181.4	4.854
191.4	5.067
201.5	5.266
211.5	5.456
221.6	5.640
231.6	5.827
241.6	5.999
251.7	6.166
261.7	6.329
271.8	6.489
281.8	6.635
291.9	6.790
301.9	6.943
312.0	7.094
322.0	7.243
332.1	7.394
342.1	7.540
352.2	7.684
362.2	7.828
372.3	7.970
382.3	8.112
392.4	8.252
402.4	8.392
412.5	8.531
422.5	8.669
432.6	8.807
442.6	8.945
452.6	9.082
462.7	9.218
472.7	9.354
482.8	9.489
492.8	9.625
502.9	9.759
512.9	9.893
523.0	10.03
533.0	10.16
543.1	10.30
553.1	10.43
563.2	10.56
573.2	10.69
583.3	10.83
593.3	10.96
603.4	11.09
613.4	11.22
623.5	11.35
633.5	11.48
643.6	11.61
653.6	11.74
663.7	11.88
673.7	12.01
683.7	12.14
693.8	12.27
703.8	12.40
713.9	12.53
723.9	12.66
734.0	12.79
744.0	12.92
754.1	13.05
764.1	13.18
774.2	13.31
784.2	13.44
794.3	13.57
804.3	13.70
814.4	13.83
824.4	13.96
834.5	14.09
844.5	14.22
854.6	14.35
864.6	14.48
874.7	14.61
884.7	14.74
894.7	14.86
904.8	14.99
914.8	15.12
924.9	15.25
934.9	15.38
945.0	15.51
955.0	15.64
965.1	15.77
975.1	15.90
985.2	16.03
995.2	16.16
1005.	16.29
1015.	16.42
1025.	16.55
1035.	16.68
1045.	16.81
1056.	16.94
1066.	17.07
1076.	17.20
1086.	17.33
1096.	17.46
1106.	17.59
1116.	17.72
1126.	17.85
1136.	17.97
1146.	18.10
1156.	18.23
1166.	18.36
1176.	18.49
1186.	18.62
1196.	18.75
1206.	18.88
1216.	19.01
1226.	19.15
1236.	19.28
1246.	19.41
1256.	19.54
1267.	19.67
1277.	19.80
1287.	19.93
1297.	20.06
1307.	20.19
1317.	20.32
1327.	20.45
1337.	20.58
1347.	20.71
1357.	20.84
1367.	20.98
1377.	21.11
1387.	21.24
1397.	21.37
1407.	21.50
1417.	21.63
1427.	21.76
1437.	21.90
1447.	22.03
1457.	22.16
1467.	22.29
1478.	22.42
1488.	22.56
1498.	22.69
1508.	22.82
1518.	22.95
1528.	23.08
1538.	23.22
1548.	23.35
1558.	23.48
1568.	23.61
1578.	23.75
1588.	23.88
1598.	24.01
1608.	24.15
1618.	24.28
1628.	24.41
1638.	24.55
1648.	24.68
1658.	24.82
1668.	24.95
1678.	25.08
1689.	25.22
1699.	25.35
1709.	25.49
1719.	25.62
1729.	25.76
1739.	25.89
1749.	26.03
1759.	26.16
1769.	26.30
1779.	26.43
1789.	26.57
1799.	26.70
1809.	26.84
1819.	26.97
1829.	27.11
1839.	27.25
1849.	27.38
1859.	27.52
1869.	27.66
1879.	27.79
1889.	27.93
1900.	28.07
1910.	28.20
1920.	28.34
1930.	28.48
1940.	28.61
1950.	28.75
1960.	28.89
1970.	29.03
1980.	29.16
1990.	29.30
2000.	29.44

# Electron mobility (E/N, mu*N)
0.5000	0.7640E+25
10.55	0.1988E+25
20.60	0.1641E+25
30.64	0.1502E+25
40.69	0.1424E+25
50.74	0.1353E+25
60.79	0.1298E+25
70.83	0.1262E+25
80.88	0.1225E+25
90.93	0.1194E+25
101.0	0.1168E+25
111.0	0.1142E+25
121.1	0.1123E+25
131.1	0.1107E+25
141.2	0.1091E+25
151.2	0.1076E+25
161.3	0.1060E+25
171.3	0.1047E+25
181.4	0.1035E+25
191.4	0.1025E+25
201.5	0.1014E+25
211.5	0.1004E+25
221.6	0.9939E+24
231.6	0.9859E+24
241.6	0.9765E+24
251.7	0.9675E+24
261.7	0.9588E+24
271.8	0.9505E+24
281.8	0.9403E+24
291.9	0.9326E+24
301.9	0.9252E+24
312.0	0.9180E+24
322.0	0.9110E+24
332.1	0.9046E+24
342.1	0.8979E+24
352.2	0.8913E+24
362.2	0.8850E+24
372.3	0.8788E+24
382.3	0.8728E+24
392.4	0.8667E+24
402.4	0.8610E+24
412.5	0.8554E+24
422.5	0.8499E+24
432.6	0.8445E+24
442.6	0.8393E+24
452.6	0.8342E+24
462.7	0.8292E+24
472.7	0.8242E+24
482.8	0.8194E+24
492.8	0.8147E+24
502.9	0.8100E+24
512.9	0.8055E+24
523.0	0.8012E+24
533.0	0.7968E+24
543.1	0.7925E+24
553.1	0.7883E+24
563.2	0.7841E+24
573.2	0.7800E+24
583.3	0.7760E+24
593.3	0.7721E+24
603.4	0.7679E+24
613.4	0.7641E+24
623.5	0.7604E+24
633.5	0.7567E+24
643.6	0.7531E+24
653.6	0.7496E+24
663.7	0.7461E+24
673.7	0.7427E+24
683.7	0.7395E+24
693.8	0.7361E+24
703.8	0.7329E+24
713.9	0.7296E+24
723.9	0.7264E+24
734.0	0.7233E+24
744.0	0.7202E+24
754.1	0.7172E+24
764.1	0.7142E+24
774.2	0.7112E+24
784.2	0.7083E+24
794.3	0.7054E+24
804.3	0.7025E+24
814.4	0.6998E+24
824.4	0.6970E+24
834.5	0.6943E+24
844.5	0.6916E+24
854.6	0.6890E+24
864.6	0.6864E+24
874.7	0.6837E+24
884.7	0.6812E+24
894.7	0.6787E+24
904.8	0.6762E+24
914.8	0.6738E+24
924.9	0.6714E+24
934.9	0.6690E+24
945.0	0.6666E+24
955.0	0.6643E+24
965.1	0.6620E+24
975.1	0.6598E+24
985.2	0.6578E+24
995.2	0.6556E+24
1005.	0.6534E+24
1015.	0.6513E+24
1025.	0.6491E+24
1035.	0.6470E+24
1045.	0.6449E+24
1056.	0.6429E+24
1066.	0.6408E+24
1076.	0.6388E+24
1086.	0.6368E+24
1096.	0.6349E+24
1106.	0.6329E+24
1116.	0.6310E+24
1126.	0.6291E+24
1136.	0.6272E+24
1146.	0.6253E+24
1156.	0.6235E+24
1166.	0.6217E+24
1176.	0.6198E+24
1186.	0.6181E+24
1196.	0.6163E+24
1206.	0.6145E+24
1216.	0.6128E+24
1226.	0.6111E+24
1236.	0.6094E+24
1246.	0.6077E+24
1256.	0.6061E+24
1267.	0.6044E+24
1277.	0.6028E+24
1287.	0.6012E+24
1297.	0.5996E+24
1307.	0.5980E+24
1317.	0.5964E+24
1327.	0.5948E+24
1337.	0.5933E+24
1347.	0.5918E+24
1357.	0.5903E+24
1367.	0.5888E+24
1377.	0.5873E+24
1387.	0.5858E+24
1397.	0.5843E+24
1407.	0.5829E+24
1417.	0.5815E+24
1427.	0.5800E+24
1437.	0.5786E+24
1447.	0.5772E+24
1457.	0.5759E+24
1467.	0.5745E+24
1478.	0.5731E+24
1488.	0.5718E+24
1498.	0.5705E+24
1508.	0.5691E+24
1518.	0.5678E+24
1528.	0.5665E+24
1538.	0.5652E+24
1548.	0.5640E+24
1558.	0.5627E+24
1568.	0.5614E+24
1578.	0.5602E+24
1588.	0.5590E+24
1598.	0.5577E+24
1608.	0.5565E+24
1618.	0.5553E+24
1628.	0.5541E+24
1638.	0.5529E+24
1648.	0.5518E+24
1658.	0.5506E+24
1668.	0.5495E+24
1678.	0.5483E+24
1689.	0.5472E+24
1699.	0.5461E+24
1709.	0.5449E+24
1719.	0.5438E+24
1729.	0.5427E+24
1739.	0.5416E+24
1749.	0.5406E+24
1759.	0.5395E+24
1769.	0.5384E+24
1779.	0.5374E+24
1789.	0.5363E+24
1799.	0.5353E+24
1809.	0.5342E+24
1819.	0.5332E+24
1829.	0.5322E+24
1839.	0.5313E+24
1849.	0.5303E+24
1859.	0.5293E+24
1869.	0.5283E+24
1879.	0.5273E+24
1889.	0.5263E+24
1900.	0.5254E+24
1910.	0.5244E+24
1920.	0.5235E+24
1930.	0.5225E+24
1940.	0.5216E+24
1950.	0.5206E+24
1960.	0.5197E+24
1970.	0.5188E+24
1980.	0.5179E+24
1990.	0.5170E+24
2000.	0.5160E+24
 
 
# Electron diffusion coefficient (E/N, D*N)
0.5000	0.1241E+25
10.55	0.1873E+25
20.60	0.1883E+25
30.64	0.1872E+25
40.69	0.1870E+25
50.74	0.1891E+25
60.79	0.1957E+25
70.83	0.2075E+25
80.88	0.2227E+25
90.93	0.2400E+25
101.0	0.2581E+25
111.0	0.2754E+25
121.1	0.2924E+25
131.1	0.3085E+25
141.2	0.3233E+25
151.2	0.3369E+25
161.3	0.3491E+25
171.3	0.3608E+25
181.4	0.3717E+25
191.4	0.3823E+25
201.5	0.3918E+25
211.5	0.4007E+25
221.6	0.4092E+25
231.6	0.4180E+25
241.6	0.4256E+25
251.7	0.4329E+25
261.7	0.4399E+25
271.8	0.4466E+25
281.8	0.4521E+25
291.9	0.4585E+25
301.9	0.4646E+25
312.0	0.4706E+25
322.0	0.4764E+25
332.1	0.4821E+25
342.1	0.4877E+25
352.2	0.4931E+25
362.2	0.4984E+25
372.3	0.5036E+25
382.3	0.5087E+25
392.4	0.5138E+25
402.4	0.5187E+25
412.5	0.5235E+25
422.5	0.5283E+25
432.6	0.5330E+25
442.6	0.5377E+25
452.6	0.5423E+25
462.7	0.5469E+25
472.7	0.5513E+25
482.8	0.5558E+25
492.8	0.5601E+25
502.9	0.5644E+25
512.9	0.5687E+25
523.0	0.5733E+25
533.0	0.5774E+25
543.1	0.5816E+25
553.1	0.5857E+25
563.2	0.5897E+25
573.2	0.5938E+25
583.3	0.5977E+25
593.3	0.6017E+25
603.4	0.6050E+25
613.4	0.6089E+25
623.5	0.6128E+25
633.5	0.6166E+25
643.6	0.6204E+25
653.6	0.6242E+25
663.7	0.6280E+25
673.7	0.6317E+25
683.7	0.6359E+25
693.8	0.6396E+25
703.8	0.6432E+25
713.9	0.6469E+25
723.9	0.6505E+25
734.0	0.6541E+25
744.0	0.6576E+25
754.1	0.6612E+25
764.1	0.6647E+25
774.2	0.6682E+25
784.2	0.6717E+25
794.3	0.6751E+25
804.3	0.6786E+25
814.4	0.6820E+25
824.4	0.6854E+25
834.5	0.6888E+25
844.5	0.6922E+25
854.6	0.6956E+25
864.6	0.6990E+25
874.7	0.7023E+25
884.7	0.7056E+25
894.7	0.7090E+25
904.8	0.7123E+25
914.8	0.7155E+25
924.9	0.7188E+25
934.9	0.7221E+25
945.0	0.7254E+25
955.0	0.7286E+25
965.1	0.7318E+25
975.1	0.7351E+25
985.2	0.7393E+25
995.2	0.7425E+25
1005.	0.7457E+25
1015.	0.7488E+25
1025.	0.7520E+25
1035.	0.7552E+25
1045.	0.7583E+25
1056.	0.7615E+25
1066.	0.7646E+25
1076.	0.7677E+25
1086.	0.7708E+25
1096.	0.7740E+25
1106.	0.7771E+25
1116.	0.7802E+25
1126.	0.7833E+25
1136.	0.7864E+25
1146.	0.7894E+25
1156.	0.7925E+25
1166.	0.7956E+25
1176.	0.7986E+25
1186.	0.8017E+25
1196.	0.8047E+25
1206.	0.8077E+25
1216.	0.8108E+25
1226.	0.8141E+25
1236.	0.8172E+25
1246.	0.8202E+25
1256.	0.8232E+25
1267.	0.8262E+25
1277.	0.8292E+25
1287.	0.8322E+25
1297.	0.8351E+25
1307.	0.8381E+25
1317.	0.8411E+25
1327.	0.8441E+25
1337.	0.8470E+25
1347.	0.8500E+25
1357.	0.8530E+25
1367.	0.8561E+25
1377.	0.8591E+25
1387.	0.8620E+25
1397.	0.8650E+25
1407.	0.8679E+25
1417.	0.8708E+25
1427.	0.8738E+25
1437.	0.8767E+25
1447.	0.8796E+25
1457.	0.8826E+25
1467.	0.8855E+25
1478.	0.8884E+25
1488.	0.8913E+25
1498.	0.8942E+25
1508.	0.8970E+25
1518.	0.8999E+25
1528.	0.9028E+25
1538.	0.9057E+25
1548.	0.9086E+25
1558.	0.9115E+25
1568.	0.9144E+25
1578.	0.9173E+25
1588.	0.9202E+25
1598.	0.9231E+25
1608.	0.9260E+25
1618.	0.9289E+25
1628.	0.9318E+25
1638.	0.9347E+25
1648.	0.9376E+25
1658.	0.9405E+25
1668.	0.9438E+25
1678.	0.9467E+25
1689.	0.9496E+25
1699.	0.9525E+25
1709.	0.9554E+25
1719.	0.9582E+25
1729.	0.9611E+25
1739.	0.9640E+25
1749.	0.9669E+25
1759.	0.9697E+25
1769.	0.9726E+25
1779.	0.9755E+25
1789.	0.9783E+25
1799.	0.9812E+25
1809.	0.9841E+25
1819.	0.9870E+25
1829.	0.9898E+25
1839.	0.9935E+25
1849.	0.9963E+25
1859.	0.9992E+25
1869.	0.1002E+26
1879.	0.1005E+26
1889.	0.1008E+26
1900.	0.1011E+26
1910.	0.1014E+26
1920.	0.1016E+26
1930.	0.1019E+26
1940.	0.1022E+26
1950.	0.1025E+26
1960.	0.1028E+26
1970.	0.1031E+26
1980.	0.1034E+26
1990.	0.1036E+26
2000.	0.1039E+26

# Townsend ionization coeff (E/N, alpha/N)
0.5000	0.000
10.55	0.000
20.60	0.5602E-32
30.64	0.3253E-28
40.69	0.2661E-26
50.74	0.4011E-25
60.79	0.2605E-24
70.83	0.1037E-23
80.88	0.2999E-23
90.93	0.7008E-23
101.0	0.1398E-22
111.0	0.2488E-22
121.1	0.4055E-22
131.1	0.6170E-22
141.2	0.8900E-22
151.2	0.1229E-21
161.3	0.1638E-21
171.3	0.2119E-21
181.4	0.2673E-21
191.4	0.3302E-21
201.5	0.4005E-21
211.5	0.4782E-21
221.6	0.5632E-21
231.6	0.6560E-21
241.6	0.7553E-21
251.7	0.8615E-21
261.7	0.9743E-21
271.8	0.1094E-20
281.8	0.1219E-20
291.9	0.1351E-20
301.9	0.1488E-20
312.0	0.1631E-20
322.0	0.1779E-20
332.1	0.1932E-20
342.1	0.2090E-20
352.2	0.2253E-20
362.2	0.2420E-20
372.3	0.2591E-20
382.3	0.2766E-20
392.4	0.2945E-20
402.4	0.3128E-20
412.5	0.3314E-20
422.5	0.3503E-20
432.6	0.3694E-20
442.6	0.3889E-20
452.6	0.4086E-20
462.7	0.4286E-20
472.7	0.4488E-20
482.8	0.4692E-20
492.8	0.4899E-20
502.9	0.5107E-20
512.9	0.5316E-20
523.0	0.5528E-20
533.0	0.5741E-20
543.1	0.5955E-20
553.1	0.6170E-20
563.2	0.6387E-20
573.2	0.6605E-20
583.3	0.6823E-20
593.3	0.7043E-20
603.4	0.7263E-20
613.4	0.7484E-20
623.5	0.7706E-20
633.5	0.7928E-20
643.6	0.8150E-20
653.6	0.8373E-20
663.7	0.8596E-20
673.7	0.8819E-20
683.7	0.9042E-20
693.8	0.9266E-20
703.8	0.9490E-20
713.9	0.9713E-20
723.9	0.9937E-20
734.0	0.1016E-19
744.0	0.1038E-19
754.1	0.1061E-19
764.1	0.1083E-19
774.2	0.1105E-19
784.2	0.1127E-19
794.3	0.1150E-19
804.3	0.1172E-19
814.4	0.1194E-19
824.4	0.1216E-19
834.5	0.1238E-19
844.5	0.1260E-19
854.6	0.1282E-19
864.6	0.1304E-19
874.7	0.1326E-19
884.7	0.1348E-19
894.7	0.1369E-19
904.8	0.1391E-19
914.8	0.1413E-19
924.9	0.1434E-19
934.9	0.1456E-19
945.0	0.1477E-19
955.0	0.1498E-19
965.1	0.1520E-19
975.1	0.1541E-19
985.2	0.1562E-19
995.2	0.1583E-19
1005.	0.1604E-19
1015.	0.1625E-19
1025.	0.1646E-19
1035.	0.1666E-19
1045.	0.1687E-19
1056.	0.1708E-19
1066.	0.1728E-19
1076.	0.1748E-19
1086.	0.1769E-19
1096.	0.1789E-19
1106.	0.1809E-19
1116.	0.1829E-19
1126.	0.1849E-19
1136.	0.1869E-19
1146.	0.1889E-19
1156.	0.1908E-19
1166.	0.1928E-19
1176.	0.1947E-19
1186.	0.1967E-19
1196.	0.1986E-19
1206.	0.2005E-19
1216.	0.2024E-19
1226.	0.2043E-19
1236.	0.2062E-19
1246.	0.2081E-19
1256.	0.2100E-19
1267.	0.2118E-19
1277.	0.2137E-19
1287.	0.2155E-19
1297.	0.2174E-19
1307.	0.2192E-19
1317.	0.2210E-19
1327.	0.2228E-19
1337.	0.2246E-19
1347.	0.2264E-19
1357.	0.2282E-19
1367.	0.2300E-19
1377.	0.2317E-19
1387.	0.2335E-19
1397.	0.2352E-19
1407.	0.2370E-19
1417.	0.2387E-19
1427.	0.2404E-19
1437.	0.2421E-19
1447.	0.2438E-19
1457.	0.2455E-19
1467.	0.2472E-19
1478.	0.2489E-19
1488.	0.2505E-19
1498.	0.2522E-19
1508.	0.2538E-19
1518.	0.2555E-19
1528.	0.2571E-19
1538.	0.2587E-19
1548.	0.2603E-19
1558.	0.2619E-19
1568.	0.2635E-19
1578.	0.2651E-19
1588.	0.2667E-19
1598.	0.2682E-19
1608.	0.2698E-19
1618.	0.2714E-19
1628.	0.2729E-19
1638.	0.2744E-19
1648.	0.2759E-19
1658.	0.2775E-19
1668.	0.2790E-19
1678.	0.2805E-19
1689.	0.2820E-19
1699.	0.2834E-19
1709.	0.2849E-19
1719.	0.2864E-19
1729.	0.2878E-19
1739.	0.2893E-19
1749.	0.2907E-19
1759.	0.2921E-19
1769.	0.2936E-19
1779.	0.2950E-19
1789.	0.2964E-19
1799.	0.2978E-19
1809.	0.2992E-19
1819.	0.3006E-19
1829.	0.3019E-19
1839.	0.3033E-19
1849.	0.3046E-19
1859.	0.3060E-19
1869.	0.3073E-19
1879.	0.3087E-19
1889.	0.3100E-19
1900.	0.3113E-19
1910.	0.3126E-19
1920.	0.3139E-19
1930.	0.3152E-19
1940.	0.3165E-19
1950.	0.3178E-19
1960.	0.3191E-19
1970.	0.3203E-19
1980.	0.3216E-19
1990.	0.3228E-19
2000.	0.3241E-19
 
# Townsend attachment coeff (E/N, eta/N)
0.5000	0.1643E-39
10.55	0.5198E-41
20.60	0.9341E-27
30.64	0.9582E-25
40.69	0.9369E-24
50.74	0.3498E-23
60.79	0.8070E-23
70.83	0.1405E-22
80.88	0.2035E-22
90.93	0.2624E-22
101.0	0.3113E-22
111.0	0.3495E-22
121.1	0.3775E-22
131.1	0.3964E-22
141.2	0.4086E-22
151.2	0.4153E-22
161.3	0.4178E-22
171.3	0.4171E-22
181.4	0.4141E-22
191.4	0.4094E-22
201.5	0.4034E-22
211.5	0.3965E-22
221.6	0.3891E-22
231.6	0.3816E-22
241.6	0.3737E-22
251.7	0.3656E-22
261.7	0.3576E-22
271.8	0.3497E-22
281.8	0.3419E-22
291.9	0.3342E-22
301.9	0.3268E-22
312.0	0.3195E-22
322.0	0.3124E-22
332.1	0.3055E-22
342.1	0.2989E-22
352.2	0.2925E-22
362.2	0.2862E-22
372.3	0.2802E-22
382.3	0.2744E-22
392.4	0.2689E-22
402.4	0.2634E-22
412.5	0.2582E-22
422.5	0.2531E-22
432.6	0.2482E-22
442.6	0.2435E-22
452.6	0.2389E-22
462.7	0.2344E-22
472.7	0.2302E-22
482.8	0.2260E-22
492.8	0.2220E-22
502.9	0.2181E-22
512.9	0.2144E-22
523.0	0.2108E-22
533.0	0.2072E-22
543.1	0.2038E-22
553.1	0.2005E-22
563.2	0.1973E-22
573.2	0.1942E-22
583.3	0.1912E-22
593.3	0.1882E-22
603.4	0.1854E-22
613.4	0.1826E-22
623.5	0.1799E-22
633.5	0.1773E-22
643.6	0.1748E-22
653.6	0.1723E-22
663.7	0.1699E-22
673.7	0.1676E-22
683.7	0.1654E-22
693.8	0.1632E-22
703.8	0.1610E-22
713.9	0.1589E-22
723.9	0.1569E-22
734.0	0.1549E-22
744.0	0.1530E-22
754.1	0.1511E-22
764.1	0.1493E-22
774.2	0.1475E-22
784.2	0.1458E-22
794.3	0.1441E-22
804.3	0.1424E-22
814.4	0.1408E-22
824.4	0.1392E-22
834.5	0.1376E-22
844.5	0.1361E-22
854.6	0.1347E-22
864.6	0.1332E-22
874.7	0.1318E-22
884.7	0.1305E-22
894.7	0.1291E-22
904.8	0.1278E-22
914.8	0.1265E-22
924.9	0.1253E-22
934.9	0.1240E-22
945.0	0.1228E-22
955.0	0.1217E-22
965.1	0.1205E-22
975.1	0.1194E-22
985.2	0.1182E-22
995.2	0.1172E-22
1005.	0.1161E-22
1015.	0.1151E-22
1025.	0.1141E-22
1035.	0.1131E-22
1045.	0.1121E-22
1056.	0.1111E-22
1066.	0.1102E-22
1076.	0.1093E-22
1086.	0.1084E-22
1096.	0.1075E-22
1106.	0.1066E-22
1116.	0.1058E-22
1126.	0.1049E-22
1136.	0.1041E-22
1146.	0.1033E-22
1156.	0.1025E-22
1166.	0.1018E-22
1176.	0.1010E-22
1186.	0.1003E-22
1196.	0.9953E-23
1206.	0.9882E-23
1216.	0.9811E-23
1226.	0.9742E-23
1236.	0.9674E-23
1246.	0.9608E-23
1256.	0.9542E-23
1267.	0.9477E-23
1277.	0.9414E-23
1287.	0.9352E-23
1297.	0.9291E-23
1307.	0.9230E-23
1317.	0.9171E-23
1327.	0.9113E-23
1337.	0.9056E-23
1347.	0.8999E-23
1357.	0.8944E-23
1367.	0.8890E-23
1377.	0.8837E-23
1387.	0.8784E-23
1397.	0.8732E-23
1407.	0.8681E-23
1417.	0.8631E-23
1427.	0.8581E-23
1437.	0.8532E-23
1447.	0.8484E-23
1457.	0.8437E-23
1467.	0.8391E-23
1478.	0.8345E-23
1488.	0.8300E-23
1498.	0.8255E-23
1508.	0.8211E-23
1518.	0.8168E-23
1528.	0.8126E-23
1538.	0.8084E-23
1548.	0.8042E-23
1558.	0.8002E-23
1568.	0.7962E-23
1578.	0.7922E-23
1588.	0.7883E-23
1598.	0.7845E-23
1608.	0.7807E-23
1618.	0.7770E-23
1628.	0.7733E-23
1638.	0.7697E-23
1648.	0.7661E-23
1658.	0.7626E-23
1668.	0.7591E-23
1678.	0.7557E-23
1689.	0.7523E-23
1699.	0.7490E-23
1709.	0.7457E-23
1719.	0.7424E-23
1729.	0.7392E-23
1739.	0.7360E-23
1749.	0.7329E-23
1759.	0.7298E-23
1769.	0.7268E-23
1779.	0.7238E-23
1789.	0.7208E-23
1799.	0.7179E-23
1809.	0.7150E-23
1819.	0.7122E-23
1829.	0.7093E-23
1839.	0.7064E-23
1849.	0.7037E-23
1859.	0.7009E-23
1869.	0.6983E-23
1879.	0.6956E-23
1889.	0.6930E-23
1900.	0.6904E-23
1910.	0.6879E-23
1920.	0.6854E-23
1930.	0.6829E-23
1940.	0.6804E-23
1950.	0.6780E-23
1960.	0.6756E-23
1970.	0.6732E-23
1980.	0.6709E-23
1990.	0.6686E-23
2000.	0.6663E-23

# N2 ionization (E/N, rate/N)
0.5000	0.000
10.55	0.000
20.60	0.000
30.64	0.000
40.69	0.2553E-23
50.74	0.1561E-21
60.79	0.2519E-20
70.83	0.1906E-19
80.88	0.8726E-19
90.93	0.2879E-18
101.0	0.7503E-18
111.0	0.1647E-17
121.1	0.3194E-17
131.1	0.5633E-17
141.2	0.9195E-17
151.2	0.1413E-16
161.3	0.2065E-16
171.3	0.2904E-16
181.4	0.3950E-16
191.4	0.5232E-16
201.5	0.6752E-16
211.5	0.8534E-16
221.6	0.1060E-15
231.6	0.1298E-15
241.6	0.1564E-15
251.7	0.1862E-15
261.7	0.2192E-15
271.8	0.2555E-15
281.8	0.2945E-15
291.9	0.3377E-15
301.9	0.3843E-15
312.0	0.4344E-15
322.0	0.4881E-15
332.1	0.5455E-15
342.1	0.6063E-15
352.2	0.6706E-15
362.2	0.7385E-15
372.3	0.8100E-15
382.3	0.8849E-15
392.4	0.9633E-15
402.4	0.1045E-14
412.5	0.1131E-14
422.5	0.1219E-14
432.6	0.1311E-14
442.6	0.1407E-14
452.6	0.1506E-14
462.7	0.1608E-14
472.7	0.1713E-14
482.8	0.1821E-14
492.8	0.1933E-14
502.9	0.2047E-14
512.9	0.2165E-14
523.0	0.2286E-14
533.0	0.2409E-14
543.1	0.2535E-14
553.1	0.2664E-14
563.2	0.2796E-14
573.2	0.2930E-14
583.3	0.3067E-14
593.3	0.3207E-14
603.4	0.3347E-14
613.4	0.3492E-14
623.5	0.3639E-14
633.5	0.3788E-14
643.6	0.3940E-14
653.6	0.4094E-14
663.7	0.4251E-14
673.7	0.4409E-14
683.7	0.4571E-14
693.8	0.4734E-14
703.8	0.4899E-14
713.9	0.5065E-14
723.9	0.5234E-14
734.0	0.5405E-14
744.0	0.5578E-14
754.1	0.5752E-14
764.1	0.5928E-14
774.2	0.6106E-14
784.2	0.6285E-14
794.3	0.6467E-14
804.3	0.6650E-14
814.4	0.6835E-14
824.4	0.7021E-14
834.5	0.7209E-14
844.5	0.7398E-14
854.6	0.7589E-14
864.6	0.7782E-14
874.7	0.7975E-14
884.7	0.8170E-14
894.7	0.8367E-14
904.8	0.8565E-14
914.8	0.8764E-14
924.9	0.8964E-14
934.9	0.9165E-14
945.0	0.9368E-14
955.0	0.9572E-14
965.1	0.9777E-14
975.1	0.9983E-14
985.2	0.1020E-13
995.2	0.1041E-13
1005.	0.1061E-13
1015.	0.1082E-13
1025.	0.1104E-13
1035.	0.1125E-13
1045.	0.1146E-13
1056.	0.1167E-13
1066.	0.1189E-13
1076.	0.1211E-13
1086.	0.1232E-13
1096.	0.1254E-13
1106.	0.1276E-13
1116.	0.1298E-13
1126.	0.1320E-13
1136.	0.1342E-13
1146.	0.1364E-13
1156.	0.1386E-13
1166.	0.1408E-13
1176.	0.1431E-13
1186.	0.1453E-13
1196.	0.1475E-13
1206.	0.1498E-13
1216.	0.1521E-13
1226.	0.1543E-13
1236.	0.1566E-13
1246.	0.1589E-13
1256.	0.1611E-13
1267.	0.1634E-13
1277.	0.1657E-13
1287.	0.1680E-13
1297.	0.1703E-13
1307.	0.1726E-13
1317.	0.1749E-13
1327.	0.1772E-13
1337.	0.1795E-13
1347.	0.1818E-13
1357.	0.1842E-13
1367.	0.1865E-13
1377.	0.1888E-13
1387.	0.1911E-13
1397.	0.1935E-13
1407.	0.1958E-13
1417.	0.1981E-13
1427.	0.2005E-13
1437.	0.2028E-13
1447.	0.2052E-13
1457.	0.2075E-13
1467.	0.2099E-13
1478.	0.2122E-13
1488.	0.2146E-13
1498.	0.2169E-13
1508.	0.2193E-13
1518.	0.2217E-13
1528.	0.2240E-13
1538.	0.2264E-13
1548.	0.2288E-13
1558.	0.2311E-13
1568.	0.2335E-13
1578.	0.2359E-13
1588.	0.2382E-13
1598.	0.2406E-13
1608.	0.2430E-13
1618.	0.2454E-13
1628.	0.2478E-13
1638.	0.2501E-13
1648.	0.2525E-13
1658.	0.2549E-13
1668.	0.2573E-13
1678.	0.2597E-13
1689.	0.2620E-13
1699.	0.2644E-13
1709.	0.2668E-13
1719.	0.2692E-13
1729.	0.2716E-13
1739.	0.2739E-13
1749.	0.2763E-13
1759.	0.2787E-13
1769.	0.2811E-13
1779.	0.2835E-13
1789.	0.2859E-13
1799.	0.2882E-13
1809.	0.2906E-13
1819.	0.2930E-13
1829.	0.2954E-13
1839.	0.2978E-13
1849.	0.3002E-13
1859.	0.3026E-13
1869.	0.3050E-13
1879.	0.3073E-13
1889.	0.3097E-13
1900.	0.3121E-13
1910.	0.3145E-13
1920.	0.3168E-13
1930.	0.3192E-13
1940.	0.3216E-13
1950.	0.3240E-13
1960.	0.3263E-13
1970.	0.3287E-13
1980.	0.3311E-13
1990.	0.3334E-13
2000.	0.3358E-13

# O2 ionization (E/N, rate/N)
0.5000	0.000
10.55	0.000
20.60	0.9469E-27
30.64	0.7485E-23
40.69	0.7607E-21
50.74	0.1315E-19
60.79	0.9267E-19
70.83	0.3872E-18
80.88	0.1137E-17
90.93	0.2653E-17
101.0	0.5246E-17
111.0	0.9185E-17
121.1	0.1478E-16
131.1	0.2225E-16
141.2	0.3175E-16
151.2	0.4345E-16
161.3	0.5739E-16
171.3	0.7387E-16
181.4	0.9290E-16
191.4	0.1148E-15
201.5	0.1392E-15
211.5	0.1663E-15
221.6	0.1963E-15
231.6	0.2297E-15
241.6	0.2655E-15
251.7	0.3042E-15
261.7	0.3459E-15
271.8	0.3905E-15
281.8	0.4371E-15
291.9	0.4876E-15
301.9	0.5411E-15
312.0	0.5976E-15
322.0	0.6571E-15
332.1	0.7197E-15
342.1	0.7850E-15
352.2	0.8533E-15
362.2	0.9244E-15
372.3	0.9985E-15
382.3	0.1075E-14
392.4	0.1155E-14
402.4	0.1238E-14
412.5	0.1323E-14
422.5	0.1411E-14
432.6	0.1502E-14
442.6	0.1596E-14
452.6	0.1692E-14
462.7	0.1791E-14
472.7	0.1892E-14
482.8	0.1997E-14
492.8	0.2103E-14
502.9	0.2212E-14
512.9	0.2324E-14
523.0	0.2439E-14
533.0	0.2556E-14
543.1	0.2675E-14
553.1	0.2796E-14
563.2	0.2920E-14
573.2	0.3046E-14
583.3	0.3174E-14
593.3	0.3305E-14
603.4	0.3436E-14
613.4	0.3571E-14
623.5	0.3709E-14
633.5	0.3848E-14
643.6	0.3989E-14
653.6	0.4133E-14
663.7	0.4278E-14
673.7	0.4425E-14
683.7	0.4576E-14
693.8	0.4727E-14
703.8	0.4880E-14
713.9	0.5035E-14
723.9	0.5192E-14
734.0	0.5351E-14
744.0	0.5511E-14
754.1	0.5674E-14
764.1	0.5838E-14
774.2	0.6003E-14
784.2	0.6170E-14
794.3	0.6339E-14
804.3	0.6509E-14
814.4	0.6682E-14
824.4	0.6855E-14
834.5	0.7031E-14
844.5	0.7208E-14
854.6	0.7386E-14
864.6	0.7566E-14
874.7	0.7747E-14
884.7	0.7930E-14
894.7	0.8114E-14
904.8	0.8299E-14
914.8	0.8486E-14
924.9	0.8674E-14
934.9	0.8863E-14
945.0	0.9054E-14
955.0	0.9245E-14
965.1	0.9438E-14
975.1	0.9633E-14
985.2	0.9835E-14
995.2	0.1003E-13
1005.	0.1023E-13
1015.	0.1043E-13
1025.	0.1063E-13
1035.	0.1083E-13
1045.	0.1103E-13
1056.	0.1123E-13
1066.	0.1144E-13
1076.	0.1164E-13
1086.	0.1185E-13
1096.	0.1206E-13
1106.	0.1227E-13
1116.	0.1248E-13
1126.	0.1269E-13
1136.	0.1290E-13
1146.	0.1311E-13
1156.	0.1332E-13
1166.	0.1353E-13
1176.	0.1375E-13
1186.	0.1396E-13
1196.	0.1418E-13
1206.	0.1440E-13
1216.	0.1461E-13
1226.	0.1483E-13
1236.	0.1505E-13
1246.	0.1527E-13
1256.	0.1549E-13
1267.	0.1571E-13
1277.	0.1593E-13
1287.	0.1616E-13
1297.	0.1638E-13
1307.	0.1660E-13
1317.	0.1683E-13
1327.	0.1705E-13
1337.	0.1728E-13
1347.	0.1750E-13
1357.	0.1773E-13
1367.	0.1795E-13
1377.	0.1818E-13
1387.	0.1841E-13
1397.	0.1864E-13
1407.	0.1887E-13
1417.	0.1910E-13
1427.	0.1933E-13
1437.	0.1956E-13
1447.	0.1979E-13
1457.	0.2002E-13
1467.	0.2025E-13
1478.	0.2048E-13
1488.	0.2072E-13
1498.	0.2095E-13
1508.	0.2118E-13
1518.	0.2142E-13
1528.	0.2165E-13
1538.	0.2188E-13
1548.	0.2212E-13
1558.	0.2235E-13
1568.	0.2259E-13
1578.	0.2283E-13
1588.	0.2306E-13
1598.	0.2330E-13
1608.	0.2354E-13
1618.	0.2377E-13
1628.	0.2401E-13
1638.	0.2425E-13
1648.	0.2449E-13
1658.	0.2472E-13
1668.	0.2496E-13
1678.	0.2520E-13
1689.	0.2544E-13
1699.	0.2568E-13
1709.	0.2592E-13
1719.	0.2616E-13
1729.	0.2640E-13
1739.	0.2664E-13
1749.	0.2688E-13
1759.	0.2712E-13
1769.	0.2736E-13
1779.	0.2760E-13
1789.	0.2784E-13
1799.	0.2808E-13
1809.	0.2832E-13
1819.	0.2856E-13
1829.	0.2880E-13
1839.	0.2905E-13
1849.	0.2929E-13
1859.	0.2953E-13
1869.	0.2978E-13
1879.	0.3002E-13
1889.	0.3026E-13
1900.	0.3050E-13
1910.	0.3074E-13
1920.	0.3099E-13
1930.	0.3123E-13
1940.	0.3147E-13
1950.	0.3171E-13
1960.	0.3195E-13
1970.	0.3220E-13
1980.	0.3244E-13
1990.	0.3268E-13
2000.	0.3292E-13
